File: 20131015-Master_Thesis/img/results/ig2-4-xrd-spin700.txt
3	49
3.05	45
3.1	47
3.15	43
3.2	50
3.25	40
3.3	45
3.35	42
3.4	41
3.45	41
3.5	42
3.55	36
3.6	36
3.65	39
3.7	37
3.75	35
3.8	34
3.85	34
3.9	31
3.95	31
4	29
4.05	33
4.1	28
4.15	30
4.2	31
4.25	29
4.3	29
4.35	34
4.4	32
4.45	26
4.5	30
4.55	25
4.6	24
4.65	26
4.7	27
4.75	28
4.8	26
4.85	25
4.9	26
4.95	30
5	22
5.05	27
5.1	25
5.15	24
5.2	26
5.25	26
5.3	26
5.35	29
5.4	26
5.45	26
5.5	29
5.55	31
5.6	30
5.65	33
5.7	35
5.75	32
5.8	31
5.85	28
5.9	34
5.95	34
6	28
6.05	26
6.1	29
6.15	28
6.2	27
6.25	20
6.3	23
6.35	21
6.4	24
6.45	21
6.5	23
6.55	19
6.6	25
6.65	19
6.7	18
6.75	20
6.8	22
6.85	20
6.9	21
6.95	18
7	22
7.05	21
7.1	19
7.15	23
7.2	19
7.25	18
7.3	25
7.35	19
7.4	18
7.45	19
7.5	25
7.55	22
7.6	18
7.65	20
7.7	22
7.75	20
7.8	22
7.85	21
7.9	21
7.95	20
8	20
8.05	22
8.1	19
8.15	19
8.2	20
8.25	21
8.3	18
8.35	21
8.4	24
8.45	21
8.5	22
8.55	22
8.6	23
8.65	24
8.7	23
8.75	21
8.8	24
8.85	26
8.9	28
8.95	25
9	26
9.05	23
9.1	24
9.15	25
9.2	24
9.25	27
9.3	25
9.35	23
9.4	26
9.45	32
9.5	28
9.55	31
9.6	26
9.65	26
9.7	28
9.75	29
9.8	27
9.85	28
9.9	34
9.95	29
10	29
10.05	33
10.1	31
10.15	36
10.2	33
10.25	33
10.3	31
10.35	33
10.4	35
10.45	35
10.5	35
10.55	36
10.6	35
10.65	37
10.7	37
10.75	35
10.8	37
10.85	36
10.9	36
10.95	38
11	35
11.05	41
11.1	41
11.15	39
11.2	42
11.25	38
11.3	41
11.35	42
11.4	40
11.45	38
11.5	44
11.55	40
11.6	39
11.65	43
11.7	40
11.75	42
11.8	45
11.85	41
11.9	42
11.95	47
12	43
12.05	45
12.1	49
12.15	50
12.2	46
12.25	47
12.3	44
12.35	50
12.4	51
12.45	45
12.5	49
12.55	51
12.6	52
12.65	54
12.7	46
12.75	48
12.8	50
12.85	49
12.9	49
12.95	56
13	57
13.05	53
13.1	51
13.15	55
13.2	58
13.25	52
13.3	51
13.35	60
13.4	57
13.45	58
13.5	59
13.55	59
13.6	56
13.65	58
13.7	57
13.75	59
13.8	64
13.85	62
13.9	63
13.95	64
14	62
14.05	59
14.1	67
14.15	63
14.2	69
14.25	66
14.3	68
14.35	64
14.4	69
14.45	69
14.5	65
14.55	66
14.6	65
14.65	68
14.7	66
14.75	70
14.8	76
14.85	69
14.9	76
14.95	72
15	74
15.05	78
15.1	66
15.15	74
15.2	79
15.25	75
15.3	70
15.35	77
15.4	77
15.45	76
15.5	81
15.55	84
15.6	78
15.65	75
15.7	79
15.75	77
15.8	81
15.85	81
15.9	89
15.95	84
16	92
16.05	89
16.1	87
16.15	87
16.2	92
16.25	86
16.3	95
16.35	98
16.4	96
16.45	92
16.5	97
16.55	98
16.6	94
16.65	94
16.7	95
16.75	103
16.8	96
16.85	109
16.9	106
16.95	99
17	108
17.05	105
17.1	104
17.15	108
17.2	110
17.25	107
17.3	112
17.35	123
17.4	111
17.45	117
17.5	112
17.55	123
17.6	124
17.65	117
17.7	121
17.75	119
17.8	125
17.85	126
17.9	131
17.95	129
18	126
18.05	136
18.1	138
18.15	145
18.2	133
18.25	138
18.3	136
18.35	142
18.4	142
18.45	156
18.5	141
18.55	145
18.6	150
18.65	154
18.7	154
18.75	154
18.8	155
18.85	154
18.9	161
18.95	163
19	165
19.05	165
19.1	171
19.15	168
19.2	166
19.25	180
19.3	167
19.35	175
19.4	173
19.45	179
19.5	180
19.55	178
19.6	183
19.65	192
19.7	186
19.75	201
19.8	186
19.85	184
19.9	193
19.95	205
20	202
20.05	207
20.1	210
20.15	208
20.2	208
20.25	219
20.3	219
20.35	225
20.4	216
20.45	215
20.5	231
20.55	233
20.6	221
20.65	226
20.7	230
20.75	228
20.8	236
20.85	233
20.9	242
20.95	245
21	249
21.05	240
21.1	244
21.15	245
21.2	246
21.25	246
21.3	248
21.35	235
21.4	253
21.45	263
21.5	250
21.55	245
21.6	247
21.65	252
21.7	256
21.75	258
21.8	258
21.85	240
21.9	244
21.95	248
22	256
22.05	243
22.1	243
22.15	243
22.2	240
22.25	246
22.3	239
22.35	240
22.4	241
22.45	254
22.5	231
22.55	239
22.6	244
22.65	243
22.7	233
22.75	239
22.8	242
22.85	242
22.9	221
22.95	235
23	231
23.05	228
23.1	233
23.15	223
23.2	214
23.25	220
23.3	233
23.35	227
23.4	223
23.45	216
23.5	214
23.55	214
23.6	210
23.65	217
23.7	207
23.75	210
23.8	213
23.85	205
23.9	201
23.95	207
24	194
24.05	193
24.1	202
24.15	211
24.2	189
24.25	206
24.3	193
24.35	181
24.4	182
24.45	185
24.5	181
24.55	173
24.6	173
24.65	180
24.7	172
24.75	170
24.8	176
24.85	183
24.9	164
24.95	170
25	168
25.05	175
25.1	170
25.15	168
25.2	170
25.25	158
25.3	153
25.35	159
25.4	154
25.45	151
25.5	144
25.55	151
25.6	160
25.65	150
25.7	148
25.75	150
25.8	142
25.85	154
25.9	139
25.95	135
26	143
26.05	136
26.1	140
26.15	138
26.2	139
26.25	132
26.3	127
26.35	132
26.4	128
26.45	126
26.5	126
26.55	121
26.6	127
26.65	127
26.7	126
26.75	120
26.8	117
26.85	122
26.9	121
26.95	117
27	112
27.05	117
27.1	112
27.15	117
27.2	110
27.25	115
27.3	115
27.35	119
27.4	113
27.45	113
27.5	112
27.55	115
27.6	110
27.65	113
27.7	105
27.75	106
27.8	105
27.85	105
27.9	111
27.95	105
28	113
28.05	100
28.1	103
28.15	105
28.2	97
28.25	100
28.3	108
28.35	100
28.4	92
28.45	98
28.5	100
28.55	97
28.6	102
28.65	92
28.7	95
28.75	96
28.8	96
28.85	92
28.9	100
28.95	101
29	92
29.05	97
29.1	91
29.15	88
29.2	92
29.25	83
29.3	87
29.35	93
29.4	85
29.45	89
29.5	93
29.55	87
29.6	92
29.65	86
29.7	94
29.75	87
29.8	92
29.85	90
29.9	83
29.95	83
30	83
30.05	83
30.1	90
30.15	82
30.2	83
30.25	80
30.3	89
30.35	81
30.4	80
30.45	77
30.5	78
30.55	80
30.6	81
30.65	75
30.7	79
30.75	81
30.8	77
30.85	83
30.9	75
30.95	77
31	78
31.05	80
31.1	72
31.15	76
31.2	70
31.25	79
31.3	78
31.35	78
31.4	79
31.45	78
31.5	70
31.55	70
31.6	76
31.65	81
31.7	75
31.75	74
31.8	75
31.85	73
31.9	81
31.95	75
32	75
32.05	79
32.1	74
32.15	78
32.2	78
32.25	72
32.3	75
32.35	74
32.4	73
32.45	71
32.5	69
32.55	70
32.6	69
32.65	70
32.7	72
32.75	71
32.8	69
32.85	66
32.9	68
32.95	69
33	70